File: TEM/Phase boundary linescan/Project 2_phase boundary/CO_phase boundary/Line Sum Spectrum.txt
#FORMAT      : EMSA/MAS Spectral Data File
#VERSION     : 1.0
#TITLE       : Line Sum Spectrum
#DATE        : 08-NOV-2023
#TIME        : 15:10
#OWNER       :
#NPOINTS     : 2048.0
#NCOLUMNS    : 1.0
#XUNITS      : keV
#YUNITS      : counts
#DATATYPE    : XY
#XPERCHAN    : 0.01
#OFFSET      : -0.2
#SIGNALTYPE  : EDS
#CHOFFSET    : 20.0
#LIVETIME    : 345.0
#REALTIME    : 350.439
#BEAMKV      : 200.0
#MAGCAM      : 120000.0
#XTILTSTGE   : 0.0
#AZIMANGLE   : 0.0
#ELEVANGLE   : 26.3
#XPOSITION mm: 0.0000
#YPOSITION mm: 0.0000
#ZPOSITION mm: 0.0000
##OXINSTPT   : 3
##OXINSTSTROB: 42.63
##OXINSTNDET : 1
##OXINSTELEMS: 12,13,14,21,22,25,26,28,29,30,24,40,6,8,19,42,16,68
##OXINSTLABEL: 12, 1.254, Mg
##OXINSTLABEL: 13, 1.487, Al
##OXINSTLABEL: 14, 1.740, Si
##OXINSTLABEL: 21, 4.091, Sc
##OXINSTLABEL: 21, 4.460, Sc
##OXINSTLABEL: 21, 0.395, Sc
##OXINSTLABEL: 21, 0.348, Sc
##OXINSTLABEL: 22, 4.511, Ti
##OXINSTLABEL: 22, 4.932, Ti
##OXINSTLABEL: 22, 0.452, Ti
##OXINSTLABEL: 22, 0.395, Ti
##OXINSTLABEL: 25, 5.899, Mn
##OXINSTLABEL: 25, 6.490, Mn
##OXINSTLABEL: 25, 0.636, Mn
##OXINSTLABEL: 25, 0.556, Mn
##OXINSTLABEL: 26, 6.404, Fe
##OXINSTLABEL: 26, 7.058, Fe
##OXINSTLABEL: 26, 0.703, Fe
##OXINSTLABEL: 26, 0.615, Fe
##OXINSTLABEL: 28, 7.478, Ni
##OXINSTLABEL: 28, 8.265, Ni
##OXINSTLABEL: 28, 0.851, Ni
##OXINSTLABEL: 28, 0.762, Ni
##OXINSTLABEL: 28, 0.743, Ni
##OXINSTLABEL: 29, 8.048, Cu
##OXINSTLABEL: 29, 8.905, Cu
##OXINSTLABEL: 29, 0.930, Cu
##OXINSTLABEL: 29, 0.832, Cu
##OXINSTLABEL: 29, 0.811, Cu
##OXINSTLABEL: 30, 8.639, Zn
##OXINSTLABEL: 30, 9.572, Zn
##OXINSTLABEL: 30, 1.012, Zn
##OXINSTLABEL: 30, 0.906, Zn
##OXINSTLABEL: 30, 0.884, Zn
##OXINSTLABEL: 24, 5.415, Cr
##OXINSTLABEL: 24, 5.947, Cr
##OXINSTLABEL: 24, 0.573, Cr
##OXINSTLABEL: 24, 0.500, Cr
##OXINSTLABEL: 40, 15.775, Zr
##OXINSTLABEL: 40, 17.668, Zr
##OXINSTLABEL: 40, 17.970, Zr
##OXINSTLABEL: 40, 2.042, Zr
##OXINSTLABEL: 40, 1.877, Zr
##OXINSTLABEL: 40, 2.503, Zr
##OXINSTLABEL: 40, 1.792, Zr
##OXINSTLABEL: 40, 0.151, Zr
##OXINSTLABEL: 6, 0.277, C
##OXINSTLABEL: 8, 0.525, O
##OXINSTLABEL: 19, 3.314, K
##OXINSTLABEL: 19, 3.590, K
##OXINSTLABEL: 19, 0.260, K
##OXINSTLABEL: 42, 17.480, Mo
##OXINSTLABEL: 42, 19.609, Mo
##OXINSTLABEL: 42, 19.965, Mo
##OXINSTLABEL: 42, 2.293, Mo
##OXINSTLABEL: 42, 2.395, Mo
##OXINSTLABEL: 42, 2.120, Mo
##OXINSTLABEL: 42, 2.831, Mo
##OXINSTLABEL: 42, 2.016, Mo
##OXINSTLABEL: 42, 0.193, Mo
##OXINSTLABEL: 16, 2.308, S
##OXINSTLABEL: 16, 2.464, S
##OXINSTLABEL: 68, 6.949, Er
##OXINSTLABEL: 68, 7.811, Er
##OXINSTLABEL: 68, 8.189, Er
##OXINSTLABEL: 68, 7.058, Er
##OXINSTLABEL: 68, 9.089, Er
##OXINSTLABEL: 68, 9.386, Er
##OXINSTLABEL: 68, 6.153, Er
##OXINSTLABEL: 68, 1.406, Er
##OXINSTLABEL: 68, 1.643, Er
##OXINSTLABEL: 68, 1.090, Er
#SPECTRUM    : Spectral Data Starts Here
-0.20000, 0.0
-0.18000, 0.0
-0.16000, 0.0
-0.14000, 0.0
-0.12000, 0.0
-0.10000, 0.0
-0.08000, 0.0
-0.06000, 45.0
-0.04000, 1320.0
-0.02000, 11345.0
0.00000, 33239.0
0.02000, 37838.0
0.04000, 26650.0
0.06000, 11798.0
0.08000, 2843.0
0.10000, 890.0
0.12000, 549.0
0.14000, 431.0
0.16000, 375.0
0.18000, 418.0
0.20000, 643.0
0.22000, 1747.0
0.24000, 5682.0
0.26000, 11483.0
0.28000, 12058.0
0.30000, 6049.0
0.32000, 1732.0
0.34000, 626.0
0.36000, 533.0
0.38000, 648.0
0.40000, 610.0
0.42000, 624.0
0.44000, 779.0
0.46000, 1113.0
0.48000, 1833.0
0.50000, 2818.0
0.52000, 3272.0
0.54000, 3020.0
0.56000, 3000.0
0.58000, 3814.0
0.60000, 4904.0
0.62000, 5160.0
0.64000, 4233.0
0.66000, 5308.0
0.68000, 9646.0
0.70000, 14112.0
0.72000, 12369.0
0.74000, 6661.0
0.76000, 2582.0
0.78000, 1116.0
0.80000, 924.0
0.82000, 1128.0
0.84000, 1476.0
0.86000, 1662.0
0.88000, 1350.0
0.90000, 1102.0
0.92000, 1129.0
0.94000, 1159.0
0.96000, 798.0
0.98000, 513.0
1.00000, 328.0
1.02000, 299.0
1.04000, 304.0
1.06000, 339.0
1.08000, 327.0
1.10000, 357.0
1.12000, 321.0
1.14000, 319.0
1.16000, 342.0
1.18000, 311.0
1.20000, 291.0
1.22000, 290.0
1.24000, 322.0
1.26000, 319.0
1.28000, 337.0
1.30000, 345.0
1.32000, 337.0
1.34000, 335.0
1.36000, 375.0
1.38000, 335.0
1.40000, 346.0
1.42000, 361.0
1.44000, 354.0
1.46000, 367.0
1.48000, 347.0
1.50000, 343.0
1.52000, 347.0
1.54000, 330.0
1.56000, 345.0
1.58000, 321.0
1.60000, 296.0
1.62000, 301.0
1.64000, 326.0
1.66000, 319.0
1.68000, 393.0
1.70000, 590.0
1.72000, 853.0
1.74000, 922.0
1.76000, 900.0
1.78000, 676.0
1.80000, 484.0
1.82000, 386.0
1.84000, 325.0
1.86000, 289.0
1.88000, 261.0
1.90000, 255.0
1.92000, 260.0
1.94000, 261.0
1.96000, 268.0
1.98000, 289.0
2.00000, 270.0
2.02000, 278.0
2.04000, 278.0
2.06000, 286.0
2.08000, 264.0
2.10000, 259.0
2.12000, 265.0
2.14000, 297.0
2.16000, 278.0
2.18000, 273.0
2.20000, 259.0
2.22000, 297.0
2.24000, 365.0
2.26000, 548.0
2.28000, 706.0
2.30000, 771.0
2.32000, 744.0
2.34000, 667.0
2.36000, 488.0
2.38000, 445.0
2.40000, 450.0
2.42000, 412.0
2.44000, 360.0
2.46000, 327.0
2.48000, 284.0
2.50000, 291.0
2.52000, 253.0
2.54000, 246.0
2.56000, 238.0
2.58000, 227.0
2.60000, 235.0
2.62000, 232.0
2.64000, 216.0
2.66000, 237.0
2.68000, 221.0
2.70000, 206.0
2.72000, 205.0
2.74000, 200.0
2.76000, 196.0
2.78000, 219.0
2.80000, 204.0
2.82000, 226.0
2.84000, 254.0
2.86000, 224.0
2.88000, 247.0
2.90000, 251.0
2.92000, 260.0
2.94000, 245.0
2.96000, 252.0
2.98000, 272.0
3.00000, 256.0
3.02000, 252.0
3.04000, 237.0
3.06000, 262.0
3.08000, 243.0
3.10000, 246.0
3.12000, 232.0
3.14000, 220.0
3.16000, 222.0
3.18000, 238.0
3.20000, 244.0
3.22000, 245.0
3.24000, 261.0
3.26000, 333.0
3.28000, 411.0
3.30000, 448.0
3.32000, 498.0
3.34000, 473.0
3.36000, 361.0
3.38000, 312.0
3.40000, 224.0
3.42000, 221.0
3.44000, 222.0
3.46000, 186.0
3.48000, 219.0
3.50000, 174.0
3.52000, 190.0
3.54000, 197.0
3.56000, 208.0
3.58000, 197.0
3.60000, 203.0
3.62000, 225.0
3.64000, 201.0
3.66000, 208.0
3.68000, 204.0
3.70000, 201.0
3.72000, 197.0
3.74000, 156.0
3.76000, 173.0
3.78000, 139.0
3.80000, 144.0
3.82000, 159.0
3.84000, 143.0
3.86000, 168.0
3.88000, 148.0
3.90000, 160.0
3.92000, 147.0
3.94000, 153.0
3.96000, 157.0
3.98000, 136.0
4.00000, 161.0
4.02000, 166.0
4.04000, 137.0
4.06000, 147.0
4.08000, 140.0
4.10000, 148.0
4.12000, 154.0
4.14000, 154.0
4.16000, 164.0
4.18000, 151.0
4.20000, 147.0
4.22000, 146.0
4.24000, 147.0
4.26000, 144.0
4.28000, 154.0
4.30000, 139.0
4.32000, 147.0
4.34000, 142.0
4.36000, 147.0
4.38000, 135.0
4.40000, 147.0
4.42000, 149.0
4.44000, 133.0
4.46000, 143.0
4.48000, 132.0
4.50000, 141.0
4.52000, 137.0
4.54000, 151.0
4.56000, 164.0
4.58000, 170.0
4.60000, 207.0
4.62000, 224.0
4.64000, 265.0
4.66000, 268.0
4.68000, 237.0
4.70000, 208.0
4.72000, 184.0
4.74000, 168.0
4.76000, 147.0
4.78000, 137.0
4.80000, 153.0
4.82000, 129.0
4.84000, 132.0
4.86000, 154.0
4.88000, 157.0
4.90000, 182.0
4.92000, 188.0
4.94000, 205.0
4.96000, 225.0
4.98000, 195.0
5.00000, 182.0
5.02000, 174.0
5.04000, 153.0
5.06000, 147.0
5.08000, 126.0
5.10000, 146.0
5.12000, 138.0
5.14000, 130.0
5.16000, 147.0
5.18000, 147.0
5.20000, 150.0
5.22000, 171.0
5.24000, 167.0
5.26000, 246.0
5.28000, 325.0
5.30000, 526.0
5.32000, 967.0
5.34000, 1770.0
5.36000, 2703.0
5.38000, 3609.0
5.40000, 4432.0
5.42000, 4518.0
5.44000, 4119.0
5.46000, 3209.0
5.48000, 2127.0
5.50000, 1247.0
5.52000, 721.0
5.54000, 428.0
5.56000, 227.0
5.58000, 161.0
5.60000, 156.0
5.62000, 153.0
5.64000, 144.0
5.66000, 141.0
5.68000, 136.0
5.70000, 140.0
5.72000, 138.0
5.74000, 152.0
5.76000, 146.0
5.78000, 196.0
5.80000, 245.0
5.82000, 298.0
5.84000, 385.0
5.86000, 538.0
5.88000, 699.0
5.90000, 807.0
5.92000, 908.0
5.94000, 933.0
5.96000, 850.0
5.98000, 685.0
6.00000, 525.0
6.02000, 382.0
6.04000, 299.0
6.06000, 223.0
6.08000, 204.0
6.10000, 168.0
6.12000, 173.0
6.14000, 181.0
6.16000, 207.0
6.18000, 219.0
6.20000, 261.0
6.22000, 422.0
6.24000, 766.0
6.26000, 1483.0
6.28000, 3115.0
6.30000, 6055.0
6.32000, 10579.0
6.34000, 16341.0
6.36000, 22566.0
6.38000, 27573.0
6.40000, 29437.0
6.42000, 27907.0
6.44000, 23173.0
6.46000, 16879.0
6.48000, 10863.0
6.50000, 6302.0
6.52000, 3360.0
6.54000, 1541.0
6.56000, 707.0
6.58000, 351.0
6.60000, 234.0
6.62000, 188.0
6.64000, 150.0
6.66000, 155.0
6.68000, 177.0
6.70000, 150.0
6.72000, 157.0
6.74000, 181.0
6.76000, 198.0
6.78000, 221.0
6.80000, 263.0
6.82000, 446.0
6.84000, 603.0
6.86000, 827.0
6.88000, 1161.0
6.90000, 1459.0
6.92000, 1725.0
6.94000, 1962.0
6.96000, 2194.0
6.98000, 2699.0
7.00000, 3200.0
7.02000, 3579.0
7.04000, 4088.0
7.06000, 4085.0
7.08000, 3741.0
7.10000, 3069.0
7.12000, 2313.0
7.14000, 1503.0
7.16000, 952.0
7.18000, 550.0
7.20000, 327.0
7.22000, 213.0
7.24000, 151.0
7.26000, 136.0
7.28000, 130.0
7.30000, 148.0
7.32000, 156.0
7.34000, 248.0
7.36000, 375.0
7.38000, 570.0
7.40000, 819.0
7.42000, 1176.0
7.44000, 1351.0
7.46000, 1595.0
7.48000, 1543.0
7.50000, 1463.0
7.52000, 1176.0
7.54000, 891.0
7.56000, 633.0
7.58000, 452.0
7.60000, 334.0
7.62000, 261.0
7.64000, 233.0
7.66000, 205.0
7.68000, 167.0
7.70000, 162.0
7.72000, 166.0
7.74000, 148.0
7.76000, 159.0
7.78000, 154.0
7.80000, 135.0
7.82000, 147.0
7.84000, 213.0
7.86000, 299.0
7.88000, 518.0
7.90000, 867.0
7.92000, 1566.0
7.94000, 2583.0
7.96000, 4007.0
7.98000, 5651.0
8.00000, 7372.0
8.02000, 8565.0
8.04000, 9027.0
8.06000, 8591.0
8.08000, 7256.0
8.10000, 5724.0
8.12000, 3929.0
8.14000, 2625.0
8.16000, 1595.0
8.18000, 911.0
8.20000, 570.0
8.22000, 452.0
8.24000, 381.0
8.26000, 354.0
8.28000, 326.0
8.30000, 295.0
8.32000, 260.0
8.34000, 234.0
8.36000, 200.0
8.38000, 161.0
8.40000, 144.0
8.42000, 125.0
8.44000, 130.0
8.46000, 127.0
8.48000, 124.0
8.50000, 111.0
8.52000, 107.0
8.54000, 115.0
8.56000, 134.0
8.58000, 157.0
8.60000, 131.0
8.62000, 148.0
8.64000, 157.0
8.66000, 148.0
8.68000, 135.0
8.70000, 155.0
8.72000, 157.0
8.74000, 221.0
8.76000, 277.0
8.78000, 381.0
8.80000, 534.0
8.82000, 771.0
8.84000, 1003.0
8.86000, 1266.0
8.88000, 1407.0
8.90000, 1520.0
8.92000, 1423.0
8.94000, 1273.0
8.96000, 994.0
8.98000, 734.0
9.00000, 513.0
9.02000, 339.0
9.04000, 237.0
9.06000, 143.0
9.08000, 99.0
9.10000, 78.0
9.12000, 62.0
9.14000, 61.0
9.16000, 63.0
9.18000, 73.0
9.20000, 79.0
9.22000, 73.0
9.24000, 83.0
9.26000, 88.0
9.28000, 90.0
9.30000, 79.0
9.32000, 71.0
9.34000, 80.0
9.36000, 68.0
9.38000, 55.0
9.40000, 61.0
9.42000, 64.0
9.44000, 53.0
9.46000, 63.0
9.48000, 59.0
9.50000, 49.0
9.52000, 63.0
9.54000, 63.0
9.56000, 50.0
9.58000, 77.0
9.60000, 51.0
9.62000, 58.0
9.64000, 58.0
9.66000, 66.0
9.68000, 62.0
9.70000, 54.0
9.72000, 54.0
9.74000, 53.0
9.76000, 45.0
9.78000, 47.0
9.80000, 54.0
9.82000, 56.0
9.84000, 55.0
9.86000, 57.0
9.88000, 54.0
9.90000, 45.0
9.92000, 42.0
9.94000, 55.0
9.96000, 56.0
9.98000, 53.0
10.00000, 52.0
10.02000, 57.0
10.04000, 43.0
10.06000, 47.0
10.08000, 52.0
10.10000, 49.0
10.12000, 38.0
10.14000, 51.0
10.16000, 50.0
10.18000, 55.0
10.20000, 50.0
10.22000, 56.0
10.24000, 42.0
10.26000, 59.0
10.28000, 57.0
10.30000, 60.0
10.32000, 46.0
10.34000, 55.0
10.36000, 54.0
10.38000, 45.0
10.40000, 62.0
10.42000, 58.0
10.44000, 50.0
10.46000, 54.0
10.48000, 53.0
10.50000, 56.0
10.52000, 47.0
10.54000, 55.0
10.56000, 58.0
10.58000, 61.0
10.60000, 54.0
10.62000, 56.0
10.64000, 51.0
10.66000, 50.0
10.68000, 55.0
10.70000, 50.0
10.72000, 46.0
10.74000, 59.0
10.76000, 43.0
10.78000, 45.0
10.80000, 55.0
10.82000, 38.0
10.84000, 45.0
10.86000, 44.0
10.88000, 46.0
10.90000, 54.0
10.92000, 42.0
10.94000, 42.0
10.96000, 52.0
10.98000, 50.0
11.00000, 44.0
11.02000, 45.0
11.04000, 46.0
11.06000, 49.0
11.08000, 45.0
11.10000, 45.0
11.12000, 49.0
11.14000, 49.0
11.16000, 43.0
11.18000, 48.0
11.20000, 44.0
11.22000, 50.0
11.24000, 45.0
11.26000, 47.0
11.28000, 53.0
11.30000, 58.0
11.32000, 46.0
11.34000, 42.0
11.36000, 44.0
11.38000, 44.0
11.40000, 43.0
11.42000, 47.0
11.44000, 39.0
11.46000, 48.0
11.48000, 41.0
11.50000, 45.0
11.52000, 44.0
11.54000, 40.0
11.56000, 45.0
11.58000, 44.0
11.60000, 47.0
11.62000, 39.0
11.64000, 46.0
11.66000, 43.0
11.68000, 37.0
11.70000, 46.0
11.72000, 49.0
11.74000, 40.0
11.76000, 43.0
11.78000, 43.0
11.80000, 49.0
11.82000, 47.0
11.84000, 37.0
11.86000, 36.0
11.88000, 48.0
11.90000, 45.0
11.92000, 44.0
11.94000, 45.0
11.96000, 42.0
11.98000, 40.0
12.00000, 53.0
12.02000, 32.0
12.04000, 40.0
12.06000, 43.0
12.08000, 37.0
12.10000, 39.0
12.12000, 45.0
12.14000, 35.0
12.16000, 54.0
12.18000, 45.0
12.20000, 45.0
12.22000, 51.0
12.24000, 42.0
12.26000, 37.0
12.28000, 44.0
12.30000, 35.0
12.32000, 42.0
12.34000, 40.0
12.36000, 46.0
12.38000, 44.0
12.40000, 42.0
12.42000, 37.0
12.44000, 34.0
12.46000, 41.0
12.48000, 41.0
12.50000, 45.0
12.52000, 46.0
12.54000, 43.0
12.56000, 34.0
12.58000, 52.0
12.60000, 44.0
12.62000, 40.0
12.64000, 42.0
12.66000, 44.0
12.68000, 41.0
12.70000, 45.0
12.72000, 47.0
12.74000, 47.0
12.76000, 47.0
12.78000, 59.0
12.80000, 51.0
12.82000, 50.0
12.84000, 47.0
12.86000, 43.0
12.88000, 36.0
12.90000, 48.0
12.92000, 39.0
12.94000, 35.0
12.96000, 41.0
12.98000, 37.0
13.00000, 40.0
13.02000, 40.0
13.04000, 40.0
13.06000, 40.0
13.08000, 37.0
13.10000, 42.0
13.12000, 35.0
13.14000, 38.0
13.16000, 35.0
13.18000, 43.0
13.20000, 43.0
13.22000, 34.0
13.24000, 37.0
13.26000, 39.0
13.28000, 34.0
13.30000, 34.0
13.32000, 41.0
13.34000, 37.0
13.36000, 43.0
13.38000, 35.0
13.40000, 40.0
13.42000, 30.0
13.44000, 37.0
13.46000, 35.0
13.48000, 45.0
13.50000, 38.0
13.52000, 44.0
13.54000, 33.0
13.56000, 35.0
13.58000, 43.0
13.60000, 35.0
13.62000, 39.0
13.64000, 46.0
13.66000, 39.0
13.68000, 36.0
13.70000, 33.0
13.72000, 25.0
13.74000, 41.0
13.76000, 38.0
13.78000, 33.0
13.80000, 38.0
13.82000, 34.0
13.84000, 35.0
13.86000, 34.0
13.88000, 39.0
13.90000, 40.0
13.92000, 31.0
13.94000, 46.0
13.96000, 29.0
13.98000, 32.0
14.00000, 50.0
14.02000, 37.0
14.04000, 40.0
14.06000, 30.0
14.08000, 32.0
14.10000, 39.0
14.12000, 33.0
14.14000, 34.0
14.16000, 28.0
14.18000, 30.0
14.20000, 45.0
14.22000, 46.0
14.24000, 38.0
14.26000, 32.0
14.28000, 42.0
14.30000, 41.0
14.32000, 33.0
14.34000, 38.0
14.36000, 27.0
14.38000, 41.0
14.40000, 33.0
14.42000, 34.0
14.44000, 43.0
14.46000, 44.0
14.48000, 42.0
14.50000, 37.0
14.52000, 36.0
14.54000, 35.0
14.56000, 37.0
14.58000, 22.0
14.60000, 37.0
14.62000, 32.0
14.64000, 22.0
14.66000, 36.0
14.68000, 33.0
14.70000, 36.0
14.72000, 29.0
14.74000, 35.0
14.76000, 29.0
14.78000, 26.0
14.80000, 30.0
14.82000, 32.0
14.84000, 27.0
14.86000, 36.0
14.88000, 34.0
14.90000, 33.0
14.92000, 30.0
14.94000, 28.0
14.96000, 28.0
14.98000, 31.0
15.00000, 35.0
15.02000, 34.0
15.04000, 37.0
15.06000, 36.0
15.08000, 29.0
15.10000, 30.0
15.12000, 37.0
15.14000, 30.0
15.16000, 30.0
15.18000, 33.0
15.20000, 30.0
15.22000, 41.0
15.24000, 32.0
15.26000, 25.0
15.28000, 29.0
15.30000, 26.0
15.32000, 40.0
15.34000, 29.0
15.36000, 37.0
15.38000, 36.0
15.40000, 33.0
15.42000, 31.0
15.44000, 28.0
15.46000, 25.0
15.48000, 31.0
15.50000, 26.0
15.52000, 35.0
15.54000, 33.0
15.56000, 34.0
15.58000, 30.0
15.60000, 31.0
15.62000, 26.0
15.64000, 31.0
15.66000, 29.0
15.68000, 30.0
15.70000, 23.0
15.72000, 32.0
15.74000, 31.0
15.76000, 23.0
15.78000, 30.0
15.80000, 25.0
15.82000, 34.0
15.84000, 25.0
15.86000, 28.0
15.88000, 30.0
15.90000, 33.0
15.92000, 30.0
15.94000, 28.0
15.96000, 30.0
15.98000, 26.0
16.00000, 23.0
16.02000, 28.0
16.04000, 34.0
16.06000, 27.0
16.08000, 28.0
16.10000, 30.0
16.12000, 26.0
16.14000, 27.0
16.16000, 30.0
16.18000, 33.0
16.20000, 28.0
16.22000, 29.0
16.24000, 27.0
16.26000, 25.0
16.28000, 28.0
16.30000, 20.0
16.32000, 26.0
16.34000, 20.0
16.36000, 31.0
16.38000, 25.0
16.40000, 25.0
16.42000, 30.0
16.44000, 31.0
16.46000, 26.0
16.48000, 25.0
16.50000, 30.0
16.52000, 28.0
16.54000, 21.0
16.56000, 26.0
16.58000, 31.0
16.60000, 27.0
16.62000, 26.0
16.64000, 29.0
16.66000, 24.0
16.68000, 22.0
16.70000, 24.0
16.72000, 26.0
16.74000, 22.0
16.76000, 26.0
16.78000, 27.0
16.80000, 19.0
16.82000, 26.0
16.84000, 18.0
16.86000, 24.0
16.88000, 24.0
16.90000, 27.0
16.92000, 32.0
16.94000, 24.0
16.96000, 26.0
16.98000, 27.0
17.00000, 25.0
17.02000, 22.0
17.04000, 21.0
17.06000, 21.0
17.08000, 19.0
17.10000, 26.0
17.12000, 20.0
17.14000, 28.0
17.16000, 28.0
17.18000, 31.0
17.20000, 34.0
17.22000, 30.0
17.24000, 31.0
17.26000, 38.0
17.28000, 47.0
17.30000, 48.0
17.32000, 55.0
17.34000, 56.0
17.36000, 61.0
17.38000, 59.0
17.40000, 67.0
17.42000, 76.0
17.44000, 59.0
17.46000, 60.0
17.48000, 57.0
17.50000, 56.0
17.52000, 61.0
17.54000, 42.0
17.56000, 38.0
17.58000, 33.0
17.60000, 30.0
17.62000, 36.0
17.64000, 33.0
17.66000, 27.0
17.68000, 23.0
17.70000, 20.0
17.72000, 30.0
17.74000, 22.0
17.76000, 23.0
17.78000, 21.0
17.80000, 30.0
17.82000, 24.0
17.84000, 26.0
17.86000, 16.0
17.88000, 19.0
17.90000, 23.0
17.92000, 22.0
17.94000, 18.0
17.96000, 25.0
17.98000, 25.0
18.00000, 28.0
18.02000, 25.0
18.04000, 22.0
18.06000, 21.0
18.08000, 19.0
18.10000, 17.0
18.12000, 19.0
18.14000, 16.0
18.16000, 26.0
18.18000, 20.0
18.20000, 12.0
18.22000, 23.0
18.24000, 19.0
18.26000, 22.0
18.28000, 20.0
18.30000, 25.0
18.32000, 21.0
18.34000, 14.0
18.36000, 18.0
18.38000, 19.0
18.40000, 23.0
18.42000, 20.0
18.44000, 16.0
18.46000, 22.0
18.48000, 16.0
18.50000, 26.0
18.52000, 26.0
18.54000, 22.0
18.56000, 17.0
18.58000, 22.0
18.60000, 25.0
18.62000, 21.0
18.64000, 15.0
18.66000, 15.0
18.68000, 22.0
18.70000, 23.0
18.72000, 26.0
18.74000, 20.0
18.76000, 21.0
18.78000, 22.0
18.80000, 18.0
18.82000, 21.0
18.84000, 18.0
18.86000, 24.0
18.88000, 21.0
18.90000, 22.0
18.92000, 23.0
18.94000, 20.0
18.96000, 19.0
18.98000, 17.0
19.00000, 20.0
19.02000, 18.0
19.04000, 18.0
19.06000, 15.0
19.08000, 19.0
19.10000, 20.0
19.12000, 26.0
19.14000, 14.0
19.16000, 16.0
19.18000, 20.0
19.20000, 19.0
19.22000, 21.0
19.24000, 17.0
19.26000, 15.0
19.28000, 15.0
19.30000, 19.0
19.32000, 16.0
19.34000, 17.0
19.36000, 19.0
19.38000, 15.0
19.40000, 30.0
19.42000, 23.0
19.44000, 23.0
19.46000, 19.0
19.48000, 26.0
19.50000, 23.0
19.52000, 25.0
19.54000, 17.0
19.56000, 22.0
19.58000, 21.0
19.60000, 25.0
19.62000, 28.0
19.64000, 25.0
19.66000, 27.0
19.68000, 21.0
19.70000, 19.0
19.72000, 21.0
19.74000, 22.0
19.76000, 20.0
19.78000, 18.0
19.80000, 14.0
19.82000, 21.0
19.84000, 16.0
19.86000, 13.0
19.88000, 19.0
19.90000, 10.0
19.92000, 12.0
19.94000, 19.0
19.96000, 21.0
19.98000, 23.0
20.00000, 20.0
20.02000, 23.0
20.04000, 17.0
20.06000, 15.0
20.08000, 18.0
20.10000, 14.0
20.12000, 21.0
20.14000, 15.0
20.16000, 20.0
20.18000, 18.0
20.20000, 23.0
20.22000, 23.0
20.24000, 12.0
20.26000, 19.0
20.27000, 15.0
#ENDOFDATA   :